Instruct1_Resp.keys,Instruct1_Resp.rt,participant,age,sex,date,expName,psychopyVersion,OS,frameRate,ChoiceResp.keys,ChoiceResp.rt,Chosen_Card,GoodDeck?,GainsLosses,TotalinBank,ChoiceBlock.thisRepN,ChoiceBlock.thisTrialN,ChoiceBlock.thisN,ChoiceBlock.thisIndex,ChoiceBlock.ran,A_Outcome,B_Outcome,C_Outcome,D_Outcome
space,15.812,kk,63,m,02/22/2023_16h03.39.800,IOWA_Gambling_4Choice_H,2022.2.4,Win32,59.95203837,,,,,,,,,,,,,,,
,,kk,63,m,02/22/2023_16h03.39.800,IOWA_Gambling_4Choice_H,2022.2.4,Win32,59.95203837,,,,,,,,,,,,,,,
,,kk,63,m,02/22/2023_16h03.39.800,IOWA_Gambling_4Choice_H,2022.2.4,Win32,59.95203837,,,,,,,,,,,,,,,
,,kk,63,m,02/22/2023_16h03.39.800,IOWA_Gambling_4Choice_H,2022.2.4,Win32,59.95203837,,,,,,,,,,,,,,,
,,kk,63,m,02/22/2023_16h03.39.800,IOWA_Gambling_4Choice_H,2022.2.4,Win32,59.95203837,2,1.996,B_Card,0,100,2100,0,0,0,0,1,100,100,50,50
,,kk,63,m,02/22/2023_16h03.39.800,IOWA_Gambling_4Choice_H,2022.2.4,Win32,59.95203837,2,3.052,B_Card,0,100,2200,0,1,1,1,1,100,100,50,50
,,kk,63,m,02/22/2023_16h03.39.800,IOWA_Gambling_4Choice_H,2022.2.4,Win32,59.95203837,2,2.121,B_Card,0,100,2300,0,2,2,2,1,-150,100,-50,50
,,kk,63,m,02/22/2023_16h03.39.800,IOWA_Gambling_4Choice_H,2022.2.4,Win32,59.95203837,2,2.353,B_Card,0,100,2400,0,3,3,3,1,100,100,50,50
,,kk,63,m,02/22/2023_16h03.39.800,IOWA_Gambling_4Choice_H,2022.2.4,Win32,59.95203837,2,1.952,B_Card,0,100,2500,0,4,4,4,1,-300,100,-50,50
,,kk,63,m,02/22/2023_16h03.39.800,IOWA_Gambling_4Choice_H,2022.2.4,Win32,59.95203837,2,1.268,B_Card,0,100,2600,0,5,5,5,1,100,100,50,50
,,kk,63,m,02/22/2023_16h03.39.800,IOWA_Gambling_4Choice_H,2022.2.4,Win32,59.95203837,2,1.136,B_Card,0,100,2700,0,6,6,6,1,-200,100,-50,50
,,kk,63,m,02/22/2023_16h03.39.800,IOWA_Gambling_4Choice_H,2022.2.4,Win32,59.95203837,3,1.819,C_Card,1,50,2750,0,7,7,7,1,100,100,50,50
,,kk,63,m,02/22/2023_16h03.39.800,IOWA_Gambling_4Choice_H,2022.2.4,Win32,59.95203837,1,1.237,A_Card,0,-250,2500,0,8,8,8,1,-250,-1250,-50,50
,,kk,63,m,02/22/2023_16h03.39.800,IOWA_Gambling_4Choice_H,2022.2.4,Win32,59.95203837,4,1.702,D_Card,1,-250,2250,0,9,9,9,1,-350,100,-50,-250
,,kk,63,m,02/22/2023_16h03.39.800,IOWA_Gambling_4Choice_H,2022.2.4,Win32,59.95203837,2,1.151,B_Card,0,100,2350,0,10,10,10,1,100,100,50,50
,,kk,63,m,02/22/2023_16h03.39.800,IOWA_Gambling_4Choice_H,2022.2.4,Win32,59.95203837,2,0.554,B_Card,0,100,2450,0,11,11,11,1,-350,100,-25,50
,,kk,63,m,02/22/2023_16h03.39.800,IOWA_Gambling_4Choice_H,2022.2.4,Win32,59.95203837,2,0.369,B_Card,0,100,2550,0,12,12,12,1,100,100,-75,50
,,kk,63,m,02/22/2023_16h03.39.800,IOWA_Gambling_4Choice_H,2022.2.4,Win32,59.95203837,2,0.465,B_Card,0,-1250,1300,0,13,13,13,1,-250,-1250,50,50
,,kk,63,m,02/22/2023_16h03.39.800,IOWA_Gambling_4Choice_H,2022.2.4,Win32,59.95203837,3,0.651,C_Card,1,-25,1275,0,14,14,14,1,-200,100,-25,50
,,kk,63,m,02/22/2023_16h03.39.800,IOWA_Gambling_4Choice_H,2022.2.4,Win32,59.95203837,1,0.304,A_Card,0,100,1375,0,15,15,15,1,100,100,50,50
,,kk,63,m,02/22/2023_16h03.39.800,IOWA_Gambling_4Choice_H,2022.2.4,Win32,59.95203837,1,1.153,A_Card,0,-300,1075,0,16,16,16,1,-300,100,-25,50
,,kk,63,m,02/22/2023_16h03.39.800,IOWA_Gambling_4Choice_H,2022.2.4,Win32,59.95203837,4,0.551,D_Card,1,50,1125,0,17,17,17,1,-150,100,-75,50
,,kk,63,m,02/22/2023_16h03.39.800,IOWA_Gambling_4Choice_H,2022.2.4,Win32,59.95203837,4,0.502,D_Card,1,50,1175,0,18,18,18,1,100,100,50,50
,,kk,63,m,02/22/2023_16h03.39.800,IOWA_Gambling_4Choice_H,2022.2.4,Win32,59.95203837,1,0.586,A_Card,0,100,1275,0,19,19,19,1,100,100,-50,-250
,,kk,63,m,02/22/2023_16h03.39.800,IOWA_Gambling_4Choice_H,2022.2.4,Win32,59.95203837,1,0.854,A_Card,0,100,1375,0,20,20,20,1,100,100,50,50
,,kk,63,m,02/22/2023_16h03.39.800,IOWA_Gambling_4Choice_H,2022.2.4,Win32,59.95203837,1,0.503,A_Card,0,-300,1075,0,21,21,21,1,-300,100,50,50
,,kk,63,m,02/22/2023_16h03.39.800,IOWA_Gambling_4Choice_H,2022.2.4,Win32,59.95203837,1,0.653,A_Card,0,100,1175,0,22,22,22,1,100,100,50,50
,,kk,63,m,02/22/2023_16h03.39.800,IOWA_Gambling_4Choice_H,2022.2.4,Win32,59.95203837,1,0.485,A_Card,0,-350,825,0,23,23,23,1,-350,100,-50,50
,,kk,63,m,02/22/2023_16h03.39.800,IOWA_Gambling_4Choice_H,2022.2.4,Win32,59.95203837,2,0.887,B_Card,0,100,925,0,24,24,24,1,100,100,-25,50
,,kk,63,m,02/22/2023_16h03.39.800,IOWA_Gambling_4Choice_H,2022.2.4,Win32,59.95203837,2,1.357,B_Card,0,100,1025,0,25,25,25,1,-200,100,-50,50
,,kk,63,m,02/22/2023_16h03.39.800,IOWA_Gambling_4Choice_H,2022.2.4,Win32,59.95203837,2,0.57,B_Card,0,100,1125,0,26,26,26,1,-250,100,50,50
,,kk,63,m,02/22/2023_16h03.39.800,IOWA_Gambling_4Choice_H,2022.2.4,Win32,59.95203837,2,0.42,B_Card,0,100,1225,0,27,27,27,1,-150,100,50,50
,,kk,63,m,02/22/2023_16h03.39.800,IOWA_Gambling_4Choice_H,2022.2.4,Win32,59.95203837,2,0.57,B_Card,0,100,1325,0,28,28,28,1,100,100,-75,-250
,,kk,63,m,02/22/2023_16h03.39.800,IOWA_Gambling_4Choice_H,2022.2.4,Win32,59.95203837,2,0.619,B_Card,0,100,1425,0,29,29,29,1,100,100,-50,50
,,kk,63,m,02/22/2023_16h03.39.800,IOWA_Gambling_4Choice_H,2022.2.4,Win32,59.95203837,2,0.557,B_Card,0,100,1525,0,30,30,30,1,-350,100,50,50
,,kk,63,m,02/22/2023_16h03.39.800,IOWA_Gambling_4Choice_H,2022.2.4,Win32,59.95203837,2,0.552,B_Card,0,-1250,275,0,31,31,31,1,-200,-1250,50,50
,,kk,63,m,02/22/2023_16h03.39.800,IOWA_Gambling_4Choice_H,2022.2.4,Win32,59.95203837,2,1.371,B_Card,0,100,375,0,32,32,32,1,-250,100,50,50
,,kk,63,m,02/22/2023_16h03.39.800,IOWA_Gambling_4Choice_H,2022.2.4,Win32,59.95203837,2,0.471,B_Card,0,100,475,0,33,33,33,1,100,100,-25,50
,,kk,63,m,02/22/2023_16h03.39.800,IOWA_Gambling_4Choice_H,2022.2.4,Win32,59.95203837,2,0.754,B_Card,0,100,575,0,34,34,34,1,100,100,-25,-250
,,kk,63,m,02/22/2023_16h03.39.800,IOWA_Gambling_4Choice_H,2022.2.4,Win32,59.95203837,2,0.52,B_Card,0,100,675,0,35,35,35,1,100,100,50,50
,,kk,63,m,02/22/2023_16h03.39.800,IOWA_Gambling_4Choice_H,2022.2.4,Win32,59.95203837,2,0.584,B_Card,0,100,775,0,36,36,36,1,-150,100,-75,50
,,kk,63,m,02/22/2023_16h03.39.800,IOWA_Gambling_4Choice_H,2022.2.4,Win32,59.95203837,2,0.569,B_Card,0,100,875,0,37,37,37,1,-300,100,50,50
,,kk,63,m,02/22/2023_16h03.39.800,IOWA_Gambling_4Choice_H,2022.2.4,Win32,59.95203837,1,0.505,A_Card,0,100,975,0,38,38,38,1,100,100,-50,50
,,kk,63,m,02/22/2023_16h03.39.800,IOWA_Gambling_4Choice_H,2022.2.4,Win32,59.95203837,1,0.67,A_Card,0,100,1075,0,39,39,39,1,100,100,-75,50
,,kk,63,m,02/22/2023_16h03.39.800,IOWA_Gambling_4Choice_H,2022.2.4,Win32,59.95203837,,,,,,,,,,,,,,,
